[
	{
		"success": true,
		"rt": 3702,
		"trial_type": "fullscreen",
		"trial_index": 0,
		"time_elapsed": 4712,
		"internal_node_id": "0.0-0.0"
	},
	{
		"rt": 1819,
		"stimulus": "<div class=\"text\"><p>実験へようこそ。</p><p>準備ができたら次へを押してください。</p></div>",
		"response": 0,
		"trial_type": "html-button-response",
		"trial_index": 1,
		"time_elapsed": 6535,
		"internal_node_id": "0.0-1.0"
	},
	{
		"rt": 39270,
		"stimulus": "<div class='text'><p>数字が表示されたら<b>スペースキー</b>を押してください。</p><p>数字<b>3</b>が表示されたら何も押さないでください。</p></div>",
		"response": 0,
		"trial_type": "html-button-response",
		"trial_index": 2,
		"time_elapsed": 45808,
		"internal_node_id": "0.0-2.0"
	},
	{
		"rt": 8297,
		"stimulus": "<div class=\"text\"><p>実験を開始します。</p><p>準備ができたら次へを押してください。</p></div>",
		"response": 0,
		"trial_type": "html-button-response",
		"trial_index": 3,
		"time_elapsed": 54106,
		"internal_node_id": "0.0-3.0"
	},
	{
		"rt": null,
		"stimulus": "<span style=\"font-size: 6rem; font-weight: bold;\">3</span>",
		"response": null,
		"task": "response",
		"correct_response": "",
		"trial_type": "html-keyboard-response",
		"trial_index": 4,
		"time_elapsed": 57114,
		"internal_node_id": "0.0-4.0-0.0",
		"correct": true
	},
	{
		"rt": 872,
		"stimulus": "<span style=\"font-size: 6rem; font-weight: bold;\">7</span>",
		"response": " ",
		"task": "response",
		"correct_response": " ",
		"trial_type": "html-keyboard-response",
		"trial_index": 5,
		"time_elapsed": 58989,
		"internal_node_id": "0.0-4.0-0.1",
		"correct": true
	},
	{
		"rt": 653,
		"stimulus": "<span style=\"font-size: 6rem; font-weight: bold;\">4</span>",
		"response": " ",
		"task": "response",
		"correct_response": " ",
		"trial_type": "html-keyboard-response",
		"trial_index": 6,
		"time_elapsed": 60644,
		"internal_node_id": "0.0-4.0-0.2",
		"correct": true
	},
	{
		"rt": null,
		"stimulus": "<span style=\"font-size: 6rem; font-weight: bold;\">3</span>",
		"response": null,
		"task": "response",
		"correct_response": "",
		"trial_type": "html-keyboard-response",
		"trial_index": 7,
		"time_elapsed": 63645,
		"internal_node_id": "0.0-4.0-0.3",
		"correct": true
	},
	{
		"rt": 863,
		"stimulus": "<span style=\"font-size: 6rem; font-weight: bold;\">7</span>",
		"response": " ",
		"task": "response",
		"correct_response": " ",
		"trial_type": "html-keyboard-response",
		"trial_index": 8,
		"time_elapsed": 65510,
		"internal_node_id": "0.0-4.0-0.4",
		"correct": true
	},
	{
		"rt": 862,
		"stimulus": "<span style=\"font-size: 6rem; font-weight: bold;\">8</span>",
		"response": " ",
		"task": "response",
		"correct_response": " ",
		"trial_type": "html-keyboard-response",
		"trial_index": 9,
		"time_elapsed": 67374,
		"internal_node_id": "0.0-4.0-0.5",
		"correct": true
	},
	{
		"rt": 907,
		"stimulus": "<span style=\"font-size: 6rem; font-weight: bold;\">1</span>",
		"response": " ",
		"task": "response",
		"correct_response": " ",
		"trial_type": "html-keyboard-response",
		"trial_index": 10,
		"time_elapsed": 69283,
		"internal_node_id": "0.0-4.0-0.6",
		"correct": true
	},
	{
		"rt": null,
		"stimulus": "<span style=\"font-size: 6rem; font-weight: bold;\">3</span>",
		"response": null,
		"task": "response",
		"correct_response": "",
		"trial_type": "html-keyboard-response",
		"trial_index": 11,
		"time_elapsed": 72287,
		"internal_node_id": "0.0-4.0-0.7",
		"correct": true
	},
	{
		"rt": 807,
		"stimulus": "<span style=\"font-size: 6rem; font-weight: bold;\">7</span>",
		"response": " ",
		"task": "response",
		"correct_response": " ",
		"trial_type": "html-keyboard-response",
		"trial_index": 12,
		"time_elapsed": 74096,
		"internal_node_id": "0.0-4.0-0.8",
		"correct": true
	},
	{
		"rt": 711,
		"stimulus": "<span style=\"font-size: 6rem; font-weight: bold;\">5</span>",
		"response": " ",
		"task": "response",
		"correct_response": " ",
		"trial_type": "html-keyboard-response",
		"trial_index": 13,
		"time_elapsed": 75809,
		"internal_node_id": "0.0-4.0-0.9",
		"correct": true
	},
	{
		"rt": 881,
		"stimulus": "<span style=\"font-size: 6rem; font-weight: bold;\">7</span>",
		"response": " ",
		"task": "response",
		"correct_response": " ",
		"trial_type": "html-keyboard-response",
		"trial_index": 14,
		"time_elapsed": 77691,
		"internal_node_id": "0.0-4.0-0.10",
		"correct": true
	},
	{
		"rt": 762,
		"stimulus": "<span style=\"font-size: 6rem; font-weight: bold;\">1</span>",
		"response": " ",
		"task": "response",
		"correct_response": " ",
		"trial_type": "html-keyboard-response",
		"trial_index": 15,
		"time_elapsed": 79455,
		"internal_node_id": "0.0-4.0-0.11",
		"correct": true
	},
	{
		"rt": 745,
		"stimulus": "<span style=\"font-size: 6rem; font-weight: bold;\">5</span>",
		"response": " ",
		"task": "response",
		"correct_response": " ",
		"trial_type": "html-keyboard-response",
		"trial_index": 16,
		"time_elapsed": 81202,
		"internal_node_id": "0.0-4.0-0.12",
		"correct": true
	},
	{
		"rt": 707,
		"stimulus": "<span style=\"font-size: 6rem; font-weight: bold;\">8</span>",
		"response": " ",
		"task": "response",
		"correct_response": " ",
		"trial_type": "html-keyboard-response",
		"trial_index": 17,
		"time_elapsed": 82911,
		"internal_node_id": "0.0-4.0-0.13",
		"correct": true
	},
	{
		"rt": 903,
		"stimulus": "<span style=\"font-size: 6rem; font-weight: bold;\">1</span>",
		"response": " ",
		"task": "response",
		"correct_response": " ",
		"trial_type": "html-keyboard-response",
		"trial_index": 18,
		"time_elapsed": 84816,
		"internal_node_id": "0.0-4.0-0.14",
		"correct": true
	},
	{
		"rt": 1045,
		"stimulus": "<span style=\"font-size: 6rem; font-weight: bold;\">9</span>",
		"response": " ",
		"task": "response",
		"correct_response": " ",
		"trial_type": "html-keyboard-response",
		"trial_index": 19,
		"time_elapsed": 86862,
		"internal_node_id": "0.0-4.0-0.15",
		"correct": true
	},
	{
		"rt": 749,
		"stimulus": "<span style=\"font-size: 6rem; font-weight: bold;\">8</span>",
		"response": " ",
		"task": "response",
		"correct_response": " ",
		"trial_type": "html-keyboard-response",
		"trial_index": 20,
		"time_elapsed": 88613,
		"internal_node_id": "0.0-4.0-0.16",
		"correct": true
	},
	{
		"rt": 906,
		"stimulus": "<span style=\"font-size: 6rem; font-weight: bold;\">7</span>",
		"response": " ",
		"task": "response",
		"correct_response": " ",
		"trial_type": "html-keyboard-response",
		"trial_index": 21,
		"time_elapsed": 90522,
		"internal_node_id": "0.0-4.0-0.17",
		"correct": true
	},
	{
		"rt": 840,
		"stimulus": "<span style=\"font-size: 6rem; font-weight: bold;\">5</span>",
		"response": " ",
		"task": "response",
		"correct_response": " ",
		"trial_type": "html-keyboard-response",
		"trial_index": 22,
		"time_elapsed": 92364,
		"internal_node_id": "0.0-4.0-0.18",
		"correct": true
	},
	{
		"rt": 1020,
		"stimulus": "<span style=\"font-size: 6rem; font-weight: bold;\">5</span>",
		"response": " ",
		"task": "response",
		"correct_response": " ",
		"trial_type": "html-keyboard-response",
		"trial_index": 23,
		"time_elapsed": 94385,
		"internal_node_id": "0.0-4.0-0.19",
		"correct": true
	},
	{
		"rt": 787,
		"stimulus": "<span style=\"font-size: 6rem; font-weight: bold;\">4</span>",
		"response": " ",
		"task": "response",
		"correct_response": " ",
		"trial_type": "html-keyboard-response",
		"trial_index": 24,
		"time_elapsed": 96174,
		"internal_node_id": "0.0-4.0-0.20",
		"correct": true
	},
	{
		"rt": 1097,
		"stimulus": "<span style=\"font-size: 6rem; font-weight: bold;\">9</span>",
		"response": " ",
		"task": "response",
		"correct_response": " ",
		"trial_type": "html-keyboard-response",
		"trial_index": 25,
		"time_elapsed": 98273,
		"internal_node_id": "0.0-4.0-0.21",
		"correct": true
	},
	{
		"rt": null,
		"stimulus": "<span style=\"font-size: 6rem; font-weight: bold;\">3</span>",
		"response": null,
		"task": "response",
		"correct_response": "",
		"trial_type": "html-keyboard-response",
		"trial_index": 26,
		"time_elapsed": 101276,
		"internal_node_id": "0.0-4.0-0.22",
		"correct": true
	},
	{
		"rt": 868,
		"stimulus": "<span style=\"font-size: 6rem; font-weight: bold;\">6</span>",
		"response": " ",
		"task": "response",
		"correct_response": " ",
		"trial_type": "html-keyboard-response",
		"trial_index": 27,
		"time_elapsed": 103145,
		"internal_node_id": "0.0-4.0-0.23",
		"correct": true
	},
	{
		"rt": 649,
		"stimulus": "<span style=\"font-size: 6rem; font-weight: bold;\">7</span>",
		"response": " ",
		"task": "response",
		"correct_response": " ",
		"trial_type": "html-keyboard-response",
		"trial_index": 28,
		"time_elapsed": 104797,
		"internal_node_id": "0.0-4.0-0.24",
		"correct": true
	},
	{
		"rt": 675,
		"stimulus": "<span style=\"font-size: 6rem; font-weight: bold;\">8</span>",
		"response": " ",
		"task": "response",
		"correct_response": " ",
		"trial_type": "html-keyboard-response",
		"trial_index": 29,
		"time_elapsed": 106475,
		"internal_node_id": "0.0-4.0-0.25",
		"correct": true
	},
	{
		"rt": null,
		"stimulus": "<span style=\"font-size: 6rem; font-weight: bold;\">3</span>",
		"response": null,
		"task": "response",
		"correct_response": "",
		"trial_type": "html-keyboard-response",
		"trial_index": 30,
		"time_elapsed": 109477,
		"internal_node_id": "0.0-4.0-0.26",
		"correct": true
	},
	{
		"rt": 788,
		"stimulus": "<span style=\"font-size: 6rem; font-weight: bold;\">7</span>",
		"response": " ",
		"task": "response",
		"correct_response": " ",
		"trial_type": "html-keyboard-response",
		"trial_index": 31,
		"time_elapsed": 111267,
		"internal_node_id": "0.0-4.0-0.27",
		"correct": true
	},
	{
		"rt": null,
		"stimulus": "<span style=\"font-size: 6rem; font-weight: bold;\">3</span>",
		"response": null,
		"task": "response",
		"correct_response": "",
		"trial_type": "html-keyboard-response",
		"trial_index": 32,
		"time_elapsed": 114270,
		"internal_node_id": "0.0-4.0-0.28",
		"correct": true
	},
	{
		"rt": 565,
		"stimulus": "<span style=\"font-size: 6rem; font-weight: bold;\">8</span>",
		"response": " ",
		"task": "response",
		"correct_response": " ",
		"trial_type": "html-keyboard-response",
		"trial_index": 33,
		"time_elapsed": 115847,
		"internal_node_id": "0.0-4.0-0.29",
		"correct": true
	},
	{
		"rt": 6135,
		"stimulus": "<div class=\"text\"><p>これで実験を終了します。</p><p>ありがとうございました。</p></div>",
		"response": 0,
		"trial_type": "html-button-response",
		"trial_index": 34,
		"time_elapsed": 122983,
		"internal_node_id": "0.0-5.0"
	},
	{
		"success": true,
		"rt": null,
		"trial_type": "fullscreen",
		"trial_index": 35,
		"time_elapsed": 122985,
		"internal_node_id": "0.0-6.0"
	},
	{
		"rt": 7576,
		"stimulus": "<div class=\"text\"><p>あなたの正答率は 100% でした。</p>\n  <p>テストを終了します。ありがとうございました。</p></div>",
		"response": " ",
		"trial_type": "html-keyboard-response",
		"trial_index": 36,
		"time_elapsed": 130563,
		"internal_node_id": "0.0-7.0"
	}
]