[
	{
		"success": true,
		"rt": 30160,
		"trial_type": "fullscreen",
		"trial_index": 0,
		"time_elapsed": 31161,
		"internal_node_id": "0.0-0.0"
	},
	{
		"rt": 8492,
		"stimulus": "<div class=\"text\"><p>実験へようこそ。</p><p>準備ができたら次へを押してください。</p></div>",
		"response": 0,
		"trial_type": "html-button-response",
		"trial_index": 1,
		"time_elapsed": 39655,
		"internal_node_id": "0.0-1.0"
	},
	{
		"rt": 38092,
		"stimulus": "<div class='text'><p>数字が表示されたら<b>スペースキー</b>を押してください。</p><p>数字<b>3</b>が表示されたら何も押さないでください。</p></div>",
		"response": 0,
		"trial_type": "html-button-response",
		"trial_index": 2,
		"time_elapsed": 77748,
		"internal_node_id": "0.0-2.0"
	},
	{
		"rt": 6536,
		"stimulus": "<div class=\"text\"><p>実験を開始します。</p><p>準備ができたら次へを押してください。</p></div>",
		"response": 0,
		"trial_type": "html-button-response",
		"trial_index": 3,
		"time_elapsed": 84286,
		"internal_node_id": "0.0-3.0"
	},
	{
		"rt": 1278,
		"stimulus": "<span style=\"font-size: 6rem; font-weight: bold;\">8</span>",
		"response": " ",
		"task": "response",
		"correct_response": " ",
		"trial_type": "html-keyboard-response",
		"trial_index": 4,
		"time_elapsed": 86582,
		"internal_node_id": "0.0-4.0-0.0",
		"correct": true
	},
	{
		"rt": 938,
		"stimulus": "<span style=\"font-size: 6rem; font-weight: bold;\">1</span>",
		"response": " ",
		"task": "response",
		"correct_response": " ",
		"trial_type": "html-keyboard-response",
		"trial_index": 5,
		"time_elapsed": 88536,
		"internal_node_id": "0.0-4.0-0.1",
		"correct": true
	},
	{
		"rt": 1754,
		"stimulus": "<span style=\"font-size: 6rem; font-weight: bold;\">9</span>",
		"response": " ",
		"task": "response",
		"correct_response": " ",
		"trial_type": "html-keyboard-response",
		"trial_index": 6,
		"time_elapsed": 91305,
		"internal_node_id": "0.0-4.0-0.2",
		"correct": true
	},
	{
		"rt": null,
		"stimulus": "<span style=\"font-size: 6rem; font-weight: bold;\">3</span>",
		"response": null,
		"task": "response",
		"correct_response": "",
		"trial_type": "html-keyboard-response",
		"trial_index": 7,
		"time_elapsed": 94328,
		"internal_node_id": "0.0-4.0-0.3",
		"correct": true
	},
	{
		"rt": 873,
		"stimulus": "<span style=\"font-size: 6rem; font-weight: bold;\">7</span>",
		"response": " ",
		"task": "response",
		"correct_response": " ",
		"trial_type": "html-keyboard-response",
		"trial_index": 8,
		"time_elapsed": 96203,
		"internal_node_id": "0.0-4.0-0.4",
		"correct": true
	},
	{
		"rt": null,
		"stimulus": "<span style=\"font-size: 6rem; font-weight: bold;\">3</span>",
		"response": null,
		"task": "response",
		"correct_response": "",
		"trial_type": "html-keyboard-response",
		"trial_index": 9,
		"time_elapsed": 99230,
		"internal_node_id": "0.0-4.0-0.5",
		"correct": true
	},
	{
		"rt": 596,
		"stimulus": "<span style=\"font-size: 6rem; font-weight: bold;\">6</span>",
		"response": " ",
		"task": "response",
		"correct_response": " ",
		"trial_type": "html-keyboard-response",
		"trial_index": 10,
		"time_elapsed": 100828,
		"internal_node_id": "0.0-4.0-0.6",
		"correct": true
	},
	{
		"rt": null,
		"stimulus": "<span style=\"font-size: 6rem; font-weight: bold;\">3</span>",
		"response": null,
		"task": "response",
		"correct_response": "",
		"trial_type": "html-keyboard-response",
		"trial_index": 11,
		"time_elapsed": 103841,
		"internal_node_id": "0.0-4.0-0.7",
		"correct": true
	},
	{
		"rt": 619,
		"stimulus": "<span style=\"font-size: 6rem; font-weight: bold;\">6</span>",
		"response": " ",
		"task": "response",
		"correct_response": " ",
		"trial_type": "html-keyboard-response",
		"trial_index": 12,
		"time_elapsed": 105475,
		"internal_node_id": "0.0-4.0-0.8",
		"correct": true
	},
	{
		"rt": 508,
		"stimulus": "<span style=\"font-size: 6rem; font-weight: bold;\">6</span>",
		"response": " ",
		"task": "response",
		"correct_response": " ",
		"trial_type": "html-keyboard-response",
		"trial_index": 13,
		"time_elapsed": 107000,
		"internal_node_id": "0.0-4.0-0.9",
		"correct": true
	},
	{
		"rt": 649,
		"stimulus": "<span style=\"font-size: 6rem; font-weight: bold;\">1</span>",
		"response": " ",
		"task": "response",
		"correct_response": " ",
		"trial_type": "html-keyboard-response",
		"trial_index": 14,
		"time_elapsed": 108656,
		"internal_node_id": "0.0-4.0-0.10",
		"correct": true
	},
	{
		"rt": 473,
		"stimulus": "<span style=\"font-size: 6rem; font-weight: bold;\">4</span>",
		"response": " ",
		"task": "response",
		"correct_response": " ",
		"trial_type": "html-keyboard-response",
		"trial_index": 15,
		"time_elapsed": 110135,
		"internal_node_id": "0.0-4.0-0.11",
		"correct": true
	},
	{
		"rt": 536,
		"stimulus": "<span style=\"font-size: 6rem; font-weight: bold;\">2</span>",
		"response": " ",
		"task": "response",
		"correct_response": " ",
		"trial_type": "html-keyboard-response",
		"trial_index": 16,
		"time_elapsed": 111681,
		"internal_node_id": "0.0-4.0-0.12",
		"correct": true
	},
	{
		"rt": null,
		"stimulus": "<span style=\"font-size: 6rem; font-weight: bold;\">3</span>",
		"response": null,
		"task": "response",
		"correct_response": "",
		"trial_type": "html-keyboard-response",
		"trial_index": 17,
		"time_elapsed": 114704,
		"internal_node_id": "0.0-4.0-0.13",
		"correct": true
	},
	{
		"rt": null,
		"stimulus": "<span style=\"font-size: 6rem; font-weight: bold;\">3</span>",
		"response": null,
		"task": "response",
		"correct_response": "",
		"trial_type": "html-keyboard-response",
		"trial_index": 18,
		"time_elapsed": 117724,
		"internal_node_id": "0.0-4.0-0.14",
		"correct": true
	},
	{
		"rt": 462,
		"stimulus": "<span style=\"font-size: 6rem; font-weight: bold;\">8</span>",
		"response": " ",
		"task": "response",
		"correct_response": " ",
		"trial_type": "html-keyboard-response",
		"trial_index": 19,
		"time_elapsed": 119189,
		"internal_node_id": "0.0-4.0-0.15",
		"correct": true
	},
	{
		"rt": null,
		"stimulus": "<span style=\"font-size: 6rem; font-weight: bold;\">3</span>",
		"response": null,
		"task": "response",
		"correct_response": "",
		"trial_type": "html-keyboard-response",
		"trial_index": 20,
		"time_elapsed": 122214,
		"internal_node_id": "0.0-4.0-0.16",
		"correct": true
	},
	{
		"rt": 459,
		"stimulus": "<span style=\"font-size: 6rem; font-weight: bold;\">1</span>",
		"response": " ",
		"task": "response",
		"correct_response": " ",
		"trial_type": "html-keyboard-response",
		"trial_index": 21,
		"time_elapsed": 123675,
		"internal_node_id": "0.0-4.0-0.17",
		"correct": true
	},
	{
		"rt": 471,
		"stimulus": "<span style=\"font-size: 6rem; font-weight: bold;\">8</span>",
		"response": " ",
		"task": "response",
		"correct_response": " ",
		"trial_type": "html-keyboard-response",
		"trial_index": 22,
		"time_elapsed": 125153,
		"internal_node_id": "0.0-4.0-0.18",
		"correct": true
	},
	{
		"rt": 583,
		"stimulus": "<span style=\"font-size: 6rem; font-weight: bold;\">9</span>",
		"response": " ",
		"task": "response",
		"correct_response": " ",
		"trial_type": "html-keyboard-response",
		"trial_index": 23,
		"time_elapsed": 126750,
		"internal_node_id": "0.0-4.0-0.19",
		"correct": true
	},
	{
		"rt": 512,
		"stimulus": "<span style=\"font-size: 6rem; font-weight: bold;\">8</span>",
		"response": " ",
		"task": "response",
		"correct_response": " ",
		"trial_type": "html-keyboard-response",
		"trial_index": 24,
		"time_elapsed": 128274,
		"internal_node_id": "0.0-4.0-0.20",
		"correct": true
	},
	{
		"rt": 524,
		"stimulus": "<span style=\"font-size: 6rem; font-weight: bold;\">5</span>",
		"response": " ",
		"task": "response",
		"correct_response": " ",
		"trial_type": "html-keyboard-response",
		"trial_index": 25,
		"time_elapsed": 129814,
		"internal_node_id": "0.0-4.0-0.21",
		"correct": true
	},
	{
		"rt": 434,
		"stimulus": "<span style=\"font-size: 6rem; font-weight: bold;\">8</span>",
		"response": " ",
		"task": "response",
		"correct_response": " ",
		"trial_type": "html-keyboard-response",
		"trial_index": 26,
		"time_elapsed": 131254,
		"internal_node_id": "0.0-4.0-0.22",
		"correct": true
	},
	{
		"rt": 459,
		"stimulus": "<span style=\"font-size: 6rem; font-weight: bold;\">4</span>",
		"response": " ",
		"task": "response",
		"correct_response": " ",
		"trial_type": "html-keyboard-response",
		"trial_index": 27,
		"time_elapsed": 132718,
		"internal_node_id": "0.0-4.0-0.23",
		"correct": true
	},
	{
		"rt": 472,
		"stimulus": "<span style=\"font-size: 6rem; font-weight: bold;\">4</span>",
		"response": " ",
		"task": "response",
		"correct_response": " ",
		"trial_type": "html-keyboard-response",
		"trial_index": 28,
		"time_elapsed": 134200,
		"internal_node_id": "0.0-4.0-0.24",
		"correct": true
	},
	{
		"rt": 467,
		"stimulus": "<span style=\"font-size: 6rem; font-weight: bold;\">5</span>",
		"response": " ",
		"task": "response",
		"correct_response": " ",
		"trial_type": "html-keyboard-response",
		"trial_index": 29,
		"time_elapsed": 135679,
		"internal_node_id": "0.0-4.0-0.25",
		"correct": true
	},
	{
		"rt": 378,
		"stimulus": "<span style=\"font-size: 6rem; font-weight: bold;\">8</span>",
		"response": " ",
		"task": "response",
		"correct_response": " ",
		"trial_type": "html-keyboard-response",
		"trial_index": 30,
		"time_elapsed": 137072,
		"internal_node_id": "0.0-4.0-0.26",
		"correct": true
	},
	{
		"rt": 466,
		"stimulus": "<span style=\"font-size: 6rem; font-weight: bold;\">4</span>",
		"response": " ",
		"task": "response",
		"correct_response": " ",
		"trial_type": "html-keyboard-response",
		"trial_index": 31,
		"time_elapsed": 138540,
		"internal_node_id": "0.0-4.0-0.27",
		"correct": true
	},
	{
		"rt": 489,
		"stimulus": "<span style=\"font-size: 6rem; font-weight: bold;\">2</span>",
		"response": " ",
		"task": "response",
		"correct_response": " ",
		"trial_type": "html-keyboard-response",
		"trial_index": 32,
		"time_elapsed": 140033,
		"internal_node_id": "0.0-4.0-0.28",
		"correct": true
	},
	{
		"rt": 422,
		"stimulus": "<span style=\"font-size: 6rem; font-weight: bold;\">8</span>",
		"response": " ",
		"task": "response",
		"correct_response": " ",
		"trial_type": "html-keyboard-response",
		"trial_index": 33,
		"time_elapsed": 141463,
		"internal_node_id": "0.0-4.0-0.29",
		"correct": true
	},
	{
		"rt": 3191,
		"stimulus": "<div class=\"text\"><p>これで実験を終了します。</p><p>ありがとうございました。</p></div>",
		"response": 0,
		"trial_type": "html-button-response",
		"trial_index": 34,
		"time_elapsed": 145663,
		"internal_node_id": "0.0-5.0"
	},
	{
		"success": true,
		"rt": null,
		"trial_type": "fullscreen",
		"trial_index": 35,
		"time_elapsed": 145666,
		"internal_node_id": "0.0-6.0"
	},
	{
		"rt": 19492,
		"stimulus": "<div class=\"text\"><p>あなたの正答率は 100% でした。</p>\n  <p>テストを終了します。ありがとうございました。</p></div>",
		"response": " ",
		"trial_type": "html-keyboard-response",
		"trial_index": 36,
		"time_elapsed": 165163,
		"internal_node_id": "0.0-7.0"
	}
]