[
	{
		"success": true,
		"rt": 43382,
		"trial_type": "fullscreen",
		"trial_index": 0,
		"time_elapsed": 44391,
		"internal_node_id": "0.0-0.0"
	},
	{
		"rt": 1761,
		"stimulus": "<div class=\"text\"><p>実験へようこそ。</p><p>準備ができたら次へを押してください。</p></div>",
		"response": 0,
		"trial_type": "html-button-response",
		"trial_index": 1,
		"time_elapsed": 46154,
		"internal_node_id": "0.0-1.0"
	},
	{
		"rt": 2029,
		"stimulus": "<div class='text'><p>数字が表示されたら<b>スペースキー</b>を押してください。</p><p>数字<b>3</b>が表示されたら何も押さないでください。</p></div>",
		"response": 0,
		"trial_type": "html-button-response",
		"trial_index": 2,
		"time_elapsed": 48184,
		"internal_node_id": "0.0-2.0"
	},
	{
		"rt": 1909,
		"stimulus": "<div class=\"text\"><p>実験を開始します。</p><p>準備ができたら次へを押してください。</p></div>",
		"response": 0,
		"trial_type": "html-button-response",
		"trial_index": 3,
		"time_elapsed": 50094,
		"internal_node_id": "0.0-3.0"
	},
	{
		"rt": null,
		"stimulus": "<span style=\"font-size: 6rem; font-weight: bold;\">5</span>",
		"response": null,
		"task": "response",
		"correct_response": " ",
		"trial_type": "html-keyboard-response",
		"trial_index": 4,
		"time_elapsed": 52117,
		"internal_node_id": "0.0-4.0-0.0",
		"correct": false
	},
	{
		"rt": 470,
		"stimulus": "<span style=\"font-size: 6rem; font-weight: bold;\">8</span>",
		"response": " ",
		"task": "response",
		"correct_response": " ",
		"trial_type": "html-keyboard-response",
		"trial_index": 5,
		"time_elapsed": 53104,
		"internal_node_id": "0.0-4.0-0.1",
		"correct": true
	},
	{
		"rt": 409,
		"stimulus": "<span style=\"font-size: 6rem; font-weight: bold;\">3</span>",
		"response": " ",
		"task": "response",
		"correct_response": "",
		"trial_type": "html-keyboard-response",
		"trial_index": 6,
		"time_elapsed": 54024,
		"internal_node_id": "0.0-4.0-0.2",
		"correct": false
	},
	{
		"rt": 707,
		"stimulus": "<span style=\"font-size: 6rem; font-weight: bold;\">5</span>",
		"response": " ",
		"task": "response",
		"correct_response": " ",
		"trial_type": "html-keyboard-response",
		"trial_index": 7,
		"time_elapsed": 55239,
		"internal_node_id": "0.0-4.0-0.3",
		"correct": true
	},
	{
		"rt": 457,
		"stimulus": "<span style=\"font-size: 6rem; font-weight: bold;\">8</span>",
		"response": " ",
		"task": "response",
		"correct_response": " ",
		"trial_type": "html-keyboard-response",
		"trial_index": 8,
		"time_elapsed": 56208,
		"internal_node_id": "0.0-4.0-0.4",
		"correct": true
	},
	{
		"rt": 515,
		"stimulus": "<span style=\"font-size: 6rem; font-weight: bold;\">9</span>",
		"response": " ",
		"task": "response",
		"correct_response": " ",
		"trial_type": "html-keyboard-response",
		"trial_index": 9,
		"time_elapsed": 57231,
		"internal_node_id": "0.0-4.0-0.5",
		"correct": true
	},
	{
		"rt": 380,
		"stimulus": "<span style=\"font-size: 6rem; font-weight: bold;\">7</span>",
		"response": " ",
		"task": "response",
		"correct_response": " ",
		"trial_type": "html-keyboard-response",
		"trial_index": 10,
		"time_elapsed": 58121,
		"internal_node_id": "0.0-4.0-0.6",
		"correct": true
	},
	{
		"rt": 378,
		"stimulus": "<span style=\"font-size: 6rem; font-weight: bold;\">2</span>",
		"response": " ",
		"task": "response",
		"correct_response": " ",
		"trial_type": "html-keyboard-response",
		"trial_index": 11,
		"time_elapsed": 59009,
		"internal_node_id": "0.0-4.0-0.7",
		"correct": true
	},
	{
		"rt": null,
		"stimulus": "<span style=\"font-size: 6rem; font-weight: bold;\">3</span>",
		"response": null,
		"task": "response",
		"correct_response": "",
		"trial_type": "html-keyboard-response",
		"trial_index": 12,
		"time_elapsed": 60531,
		"internal_node_id": "0.0-4.0-0.8",
		"correct": true
	},
	{
		"rt": 349,
		"stimulus": "<span style=\"font-size: 6rem; font-weight: bold;\">8</span>",
		"response": " ",
		"task": "response",
		"correct_response": " ",
		"trial_type": "html-keyboard-response",
		"trial_index": 13,
		"time_elapsed": 61389,
		"internal_node_id": "0.0-4.0-0.9",
		"correct": true
	},
	{
		"rt": 580,
		"stimulus": "<span style=\"font-size: 6rem; font-weight: bold;\">2</span>",
		"response": " ",
		"task": "response",
		"correct_response": " ",
		"trial_type": "html-keyboard-response",
		"trial_index": 14,
		"time_elapsed": 62480,
		"internal_node_id": "0.0-4.0-0.10",
		"correct": true
	},
	{
		"rt": 382,
		"stimulus": "<span style=\"font-size: 6rem; font-weight: bold;\">8</span>",
		"response": " ",
		"task": "response",
		"correct_response": " ",
		"trial_type": "html-keyboard-response",
		"trial_index": 15,
		"time_elapsed": 63374,
		"internal_node_id": "0.0-4.0-0.11",
		"correct": true
	},
	{
		"rt": 499,
		"stimulus": "<span style=\"font-size: 6rem; font-weight: bold;\">5</span>",
		"response": " ",
		"task": "response",
		"correct_response": " ",
		"trial_type": "html-keyboard-response",
		"trial_index": 16,
		"time_elapsed": 64379,
		"internal_node_id": "0.0-4.0-0.12",
		"correct": true
	},
	{
		"rt": 394,
		"stimulus": "<span style=\"font-size: 6rem; font-weight: bold;\">6</span>",
		"response": " ",
		"task": "response",
		"correct_response": " ",
		"trial_type": "html-keyboard-response",
		"trial_index": 17,
		"time_elapsed": 65277,
		"internal_node_id": "0.0-4.0-0.13",
		"correct": true
	},
	{
		"rt": 440,
		"stimulus": "<span style=\"font-size: 6rem; font-weight: bold;\">9</span>",
		"response": " ",
		"task": "response",
		"correct_response": " ",
		"trial_type": "html-keyboard-response",
		"trial_index": 18,
		"time_elapsed": 66226,
		"internal_node_id": "0.0-4.0-0.14",
		"correct": true
	},
	{
		"rt": 439,
		"stimulus": "<span style=\"font-size: 6rem; font-weight: bold;\">7</span>",
		"response": " ",
		"task": "response",
		"correct_response": " ",
		"trial_type": "html-keyboard-response",
		"trial_index": 19,
		"time_elapsed": 67178,
		"internal_node_id": "0.0-4.0-0.15",
		"correct": true
	},
	{
		"rt": 365,
		"stimulus": "<span style=\"font-size: 6rem; font-weight: bold;\">8</span>",
		"response": " ",
		"task": "response",
		"correct_response": " ",
		"trial_type": "html-keyboard-response",
		"trial_index": 20,
		"time_elapsed": 68053,
		"internal_node_id": "0.0-4.0-0.16",
		"correct": true
	},
	{
		"rt": null,
		"stimulus": "<span style=\"font-size: 6rem; font-weight: bold;\">3</span>",
		"response": null,
		"task": "response",
		"correct_response": "",
		"trial_type": "html-keyboard-response",
		"trial_index": 21,
		"time_elapsed": 69576,
		"internal_node_id": "0.0-4.0-0.17",
		"correct": true
	},
	{
		"rt": 411,
		"stimulus": "<span style=\"font-size: 6rem; font-weight: bold;\">2</span>",
		"response": " ",
		"task": "response",
		"correct_response": " ",
		"trial_type": "html-keyboard-response",
		"trial_index": 22,
		"time_elapsed": 70500,
		"internal_node_id": "0.0-4.0-0.18",
		"correct": true
	},
	{
		"rt": null,
		"stimulus": "<span style=\"font-size: 6rem; font-weight: bold;\">3</span>",
		"response": null,
		"task": "response",
		"correct_response": "",
		"trial_type": "html-keyboard-response",
		"trial_index": 23,
		"time_elapsed": 72014,
		"internal_node_id": "0.0-4.0-0.19",
		"correct": true
	},
	{
		"rt": 442,
		"stimulus": "<span style=\"font-size: 6rem; font-weight: bold;\">8</span>",
		"response": " ",
		"task": "response",
		"correct_response": " ",
		"trial_type": "html-keyboard-response",
		"trial_index": 24,
		"time_elapsed": 72968,
		"internal_node_id": "0.0-4.0-0.20",
		"correct": true
	},
	{
		"rt": 423,
		"stimulus": "<span style=\"font-size: 6rem; font-weight: bold;\">8</span>",
		"response": " ",
		"task": "response",
		"correct_response": " ",
		"trial_type": "html-keyboard-response",
		"trial_index": 25,
		"time_elapsed": 73903,
		"internal_node_id": "0.0-4.0-0.21",
		"correct": true
	},
	{
		"rt": 456,
		"stimulus": "<span style=\"font-size: 6rem; font-weight: bold;\">9</span>",
		"response": " ",
		"task": "response",
		"correct_response": " ",
		"trial_type": "html-keyboard-response",
		"trial_index": 26,
		"time_elapsed": 74871,
		"internal_node_id": "0.0-4.0-0.22",
		"correct": true
	},
	{
		"rt": 612,
		"stimulus": "<span style=\"font-size: 6rem; font-weight: bold;\">2</span>",
		"response": " ",
		"task": "response",
		"correct_response": " ",
		"trial_type": "html-keyboard-response",
		"trial_index": 27,
		"time_elapsed": 75995,
		"internal_node_id": "0.0-4.0-0.23",
		"correct": true
	},
	{
		"rt": null,
		"stimulus": "<span style=\"font-size: 6rem; font-weight: bold;\">3</span>",
		"response": null,
		"task": "response",
		"correct_response": "",
		"trial_type": "html-keyboard-response",
		"trial_index": 28,
		"time_elapsed": 77507,
		"internal_node_id": "0.0-4.0-0.24",
		"correct": true
	},
	{
		"rt": 968,
		"stimulus": "<span style=\"font-size: 6rem; font-weight: bold;\">2</span>",
		"response": " ",
		"task": "response",
		"correct_response": " ",
		"trial_type": "html-keyboard-response",
		"trial_index": 29,
		"time_elapsed": 78990,
		"internal_node_id": "0.0-4.0-0.25",
		"correct": true
	},
	{
		"rt": 472,
		"stimulus": "<span style=\"font-size: 6rem; font-weight: bold;\">1</span>",
		"response": " ",
		"task": "response",
		"correct_response": " ",
		"trial_type": "html-keyboard-response",
		"trial_index": 30,
		"time_elapsed": 79979,
		"internal_node_id": "0.0-4.0-0.26",
		"correct": true
	},
	{
		"rt": 471,
		"stimulus": "<span style=\"font-size: 6rem; font-weight: bold;\">6</span>",
		"response": " ",
		"task": "response",
		"correct_response": " ",
		"trial_type": "html-keyboard-response",
		"trial_index": 31,
		"time_elapsed": 80960,
		"internal_node_id": "0.0-4.0-0.27",
		"correct": true
	},
	{
		"rt": null,
		"stimulus": "<span style=\"font-size: 6rem; font-weight: bold;\">3</span>",
		"response": null,
		"task": "response",
		"correct_response": "",
		"trial_type": "html-keyboard-response",
		"trial_index": 32,
		"time_elapsed": 82490,
		"internal_node_id": "0.0-4.0-0.28",
		"correct": true
	},
	{
		"rt": 384,
		"stimulus": "<span style=\"font-size: 6rem; font-weight: bold;\">4</span>",
		"response": " ",
		"task": "response",
		"correct_response": " ",
		"trial_type": "html-keyboard-response",
		"trial_index": 33,
		"time_elapsed": 83378,
		"internal_node_id": "0.0-4.0-0.29",
		"correct": true
	},
	{
		"rt": 3727,
		"stimulus": "<div class=\"text\"><p>これで実験を終了します。</p><p>ありがとうございました。</p></div>",
		"response": 0,
		"trial_type": "html-button-response",
		"trial_index": 34,
		"time_elapsed": 87615,
		"internal_node_id": "0.0-5.0"
	},
	{
		"success": true,
		"rt": null,
		"trial_type": "fullscreen",
		"trial_index": 35,
		"time_elapsed": 87621,
		"internal_node_id": "0.0-6.0"
	},
	{
		"rt": 23514,
		"stimulus": "<div class=\"text\"><p>あなたの正答率は 93% でした。</p>\n  <p>テストを終了します。ありがとうございました。</p></div>",
		"response": " ",
		"trial_type": "html-keyboard-response",
		"trial_index": 36,
		"time_elapsed": 111142,
		"internal_node_id": "0.0-7.0"
	}
]