[
	{
		"success": true,
		"rt": 10883,
		"trial_type": "fullscreen",
		"trial_index": 0,
		"time_elapsed": 11896,
		"internal_node_id": "0.0-0.0"
	},
	{
		"rt": 3638,
		"stimulus": "<div class=\"text\"><p>実験へようこそ。</p><p>準備ができたら次へを押してください。</p></div>",
		"response": 0,
		"trial_type": "html-button-response",
		"trial_index": 1,
		"time_elapsed": 15537,
		"internal_node_id": "0.0-1.0"
	},
	{
		"rt": 4696,
		"stimulus": "<div class='text'><p>数字が表示されたら<b>スペースキー</b>を押してください。</p><p>数字<b>3</b>が表示されたら何も押さないでください。</p></div>",
		"response": 0,
		"trial_type": "html-button-response",
		"trial_index": 2,
		"time_elapsed": 20234,
		"internal_node_id": "0.0-2.0"
	},
	{
		"rt": 1935,
		"stimulus": "<div class=\"text\"><p>実験を開始します。</p><p>準備ができたら次へを押してください。</p></div>",
		"response": 0,
		"trial_type": "html-button-response",
		"trial_index": 3,
		"time_elapsed": 22171,
		"internal_node_id": "0.0-3.0"
	},
	{
		"rt": 932,
		"stimulus": "<span style=\"font-size: 6rem; font-weight: bold;\">1</span>",
		"response": " ",
		"task": "response",
		"correct_response": " ",
		"trial_type": "html-keyboard-response",
		"trial_index": 4,
		"time_elapsed": 24109,
		"internal_node_id": "0.0-4.0-0.0",
		"correct": true
	},
	{
		"rt": 603,
		"stimulus": "<span style=\"font-size: 6rem; font-weight: bold;\">5</span>",
		"response": " ",
		"task": "response",
		"correct_response": " ",
		"trial_type": "html-keyboard-response",
		"trial_index": 5,
		"time_elapsed": 25727,
		"internal_node_id": "0.0-4.0-0.1",
		"correct": true
	},
	{
		"rt": 615,
		"stimulus": "<span style=\"font-size: 6rem; font-weight: bold;\">2</span>",
		"response": " ",
		"task": "response",
		"correct_response": " ",
		"trial_type": "html-keyboard-response",
		"trial_index": 6,
		"time_elapsed": 27349,
		"internal_node_id": "0.0-4.0-0.2",
		"correct": true
	},
	{
		"rt": null,
		"stimulus": "<span style=\"font-size: 6rem; font-weight: bold;\">3</span>",
		"response": null,
		"task": "response",
		"correct_response": "",
		"trial_type": "html-keyboard-response",
		"trial_index": 7,
		"time_elapsed": 30352,
		"internal_node_id": "0.0-4.0-0.3",
		"correct": true
	},
	{
		"rt": 738,
		"stimulus": "<span style=\"font-size: 6rem; font-weight: bold;\">8</span>",
		"response": " ",
		"task": "response",
		"correct_response": " ",
		"trial_type": "html-keyboard-response",
		"trial_index": 8,
		"time_elapsed": 32101,
		"internal_node_id": "0.0-4.0-0.4",
		"correct": true
	},
	{
		"rt": 560,
		"stimulus": "<span style=\"font-size: 6rem; font-weight: bold;\">1</span>",
		"response": " ",
		"task": "response",
		"correct_response": " ",
		"trial_type": "html-keyboard-response",
		"trial_index": 9,
		"time_elapsed": 33676,
		"internal_node_id": "0.0-4.0-0.5",
		"correct": true
	},
	{
		"rt": null,
		"stimulus": "<span style=\"font-size: 6rem; font-weight: bold;\">3</span>",
		"response": null,
		"task": "response",
		"correct_response": "",
		"trial_type": "html-keyboard-response",
		"trial_index": 10,
		"time_elapsed": 36690,
		"internal_node_id": "0.0-4.0-0.6",
		"correct": true
	},
	{
		"rt": 579,
		"stimulus": "<span style=\"font-size: 6rem; font-weight: bold;\">9</span>",
		"response": " ",
		"task": "response",
		"correct_response": " ",
		"trial_type": "html-keyboard-response",
		"trial_index": 11,
		"time_elapsed": 38272,
		"internal_node_id": "0.0-4.0-0.7",
		"correct": true
	},
	{
		"rt": 498,
		"stimulus": "<span style=\"font-size: 6rem; font-weight: bold;\">2</span>",
		"response": " ",
		"task": "response",
		"correct_response": " ",
		"trial_type": "html-keyboard-response",
		"trial_index": 12,
		"time_elapsed": 39771,
		"internal_node_id": "0.0-4.0-0.8",
		"correct": true
	},
	{
		"rt": null,
		"stimulus": "<span style=\"font-size: 6rem; font-weight: bold;\">3</span>",
		"response": null,
		"task": "response",
		"correct_response": "",
		"trial_type": "html-keyboard-response",
		"trial_index": 13,
		"time_elapsed": 42790,
		"internal_node_id": "0.0-4.0-0.9",
		"correct": true
	},
	{
		"rt": null,
		"stimulus": "<span style=\"font-size: 6rem; font-weight: bold;\">3</span>",
		"response": null,
		"task": "response",
		"correct_response": "",
		"trial_type": "html-keyboard-response",
		"trial_index": 14,
		"time_elapsed": 45799,
		"internal_node_id": "0.0-4.0-0.10",
		"correct": true
	},
	{
		"rt": 659,
		"stimulus": "<span style=\"font-size: 6rem; font-weight: bold;\">8</span>",
		"response": " ",
		"task": "response",
		"correct_response": " ",
		"trial_type": "html-keyboard-response",
		"trial_index": 15,
		"time_elapsed": 47473,
		"internal_node_id": "0.0-4.0-0.11",
		"correct": true
	},
	{
		"rt": null,
		"stimulus": "<span style=\"font-size: 6rem; font-weight: bold;\">3</span>",
		"response": null,
		"task": "response",
		"correct_response": "",
		"trial_type": "html-keyboard-response",
		"trial_index": 16,
		"time_elapsed": 50499,
		"internal_node_id": "0.0-4.0-0.12",
		"correct": true
	},
	{
		"rt": 677,
		"stimulus": "<span style=\"font-size: 6rem; font-weight: bold;\">9</span>",
		"response": " ",
		"task": "response",
		"correct_response": " ",
		"trial_type": "html-keyboard-response",
		"trial_index": 17,
		"time_elapsed": 52177,
		"internal_node_id": "0.0-4.0-0.13",
		"correct": true
	},
	{
		"rt": 486,
		"stimulus": "<span style=\"font-size: 6rem; font-weight: bold;\">5</span>",
		"response": " ",
		"task": "response",
		"correct_response": " ",
		"trial_type": "html-keyboard-response",
		"trial_index": 18,
		"time_elapsed": 53667,
		"internal_node_id": "0.0-4.0-0.14",
		"correct": true
	},
	{
		"rt": 598,
		"stimulus": "<span style=\"font-size: 6rem; font-weight: bold;\">7</span>",
		"response": " ",
		"task": "response",
		"correct_response": " ",
		"trial_type": "html-keyboard-response",
		"trial_index": 19,
		"time_elapsed": 55278,
		"internal_node_id": "0.0-4.0-0.15",
		"correct": true
	},
	{
		"rt": 569,
		"stimulus": "<span style=\"font-size: 6rem; font-weight: bold;\">8</span>",
		"response": " ",
		"task": "response",
		"correct_response": " ",
		"trial_type": "html-keyboard-response",
		"trial_index": 20,
		"time_elapsed": 56852,
		"internal_node_id": "0.0-4.0-0.16",
		"correct": true
	},
	{
		"rt": 544,
		"stimulus": "<span style=\"font-size: 6rem; font-weight: bold;\">6</span>",
		"response": " ",
		"task": "response",
		"correct_response": " ",
		"trial_type": "html-keyboard-response",
		"trial_index": 21,
		"time_elapsed": 58406,
		"internal_node_id": "0.0-4.0-0.17",
		"correct": true
	},
	{
		"rt": 589,
		"stimulus": "<span style=\"font-size: 6rem; font-weight: bold;\">9</span>",
		"response": " ",
		"task": "response",
		"correct_response": " ",
		"trial_type": "html-keyboard-response",
		"trial_index": 22,
		"time_elapsed": 60000,
		"internal_node_id": "0.0-4.0-0.18",
		"correct": true
	},
	{
		"rt": 567,
		"stimulus": "<span style=\"font-size: 6rem; font-weight: bold;\">1</span>",
		"response": " ",
		"task": "response",
		"correct_response": " ",
		"trial_type": "html-keyboard-response",
		"trial_index": 23,
		"time_elapsed": 61570,
		"internal_node_id": "0.0-4.0-0.19",
		"correct": true
	},
	{
		"rt": 565,
		"stimulus": "<span style=\"font-size: 6rem; font-weight: bold;\">6</span>",
		"response": " ",
		"task": "response",
		"correct_response": " ",
		"trial_type": "html-keyboard-response",
		"trial_index": 24,
		"time_elapsed": 63148,
		"internal_node_id": "0.0-4.0-0.20",
		"correct": true
	},
	{
		"rt": null,
		"stimulus": "<span style=\"font-size: 6rem; font-weight: bold;\">3</span>",
		"response": null,
		"task": "response",
		"correct_response": "",
		"trial_type": "html-keyboard-response",
		"trial_index": 25,
		"time_elapsed": 66157,
		"internal_node_id": "0.0-4.0-0.21",
		"correct": true
	},
	{
		"rt": 642,
		"stimulus": "<span style=\"font-size: 6rem; font-weight: bold;\">2</span>",
		"response": " ",
		"task": "response",
		"correct_response": " ",
		"trial_type": "html-keyboard-response",
		"trial_index": 26,
		"time_elapsed": 67803,
		"internal_node_id": "0.0-4.0-0.22",
		"correct": true
	},
	{
		"rt": 482,
		"stimulus": "<span style=\"font-size: 6rem; font-weight: bold;\">2</span>",
		"response": " ",
		"task": "response",
		"correct_response": " ",
		"trial_type": "html-keyboard-response",
		"trial_index": 27,
		"time_elapsed": 69301,
		"internal_node_id": "0.0-4.0-0.23",
		"correct": true
	},
	{
		"rt": 486,
		"stimulus": "<span style=\"font-size: 6rem; font-weight: bold;\">4</span>",
		"response": " ",
		"task": "response",
		"correct_response": " ",
		"trial_type": "html-keyboard-response",
		"trial_index": 28,
		"time_elapsed": 70790,
		"internal_node_id": "0.0-4.0-0.24",
		"correct": true
	},
	{
		"rt": 519,
		"stimulus": "<span style=\"font-size: 6rem; font-weight: bold;\">1</span>",
		"response": " ",
		"task": "response",
		"correct_response": " ",
		"trial_type": "html-keyboard-response",
		"trial_index": 29,
		"time_elapsed": 72319,
		"internal_node_id": "0.0-4.0-0.25",
		"correct": true
	},
	{
		"rt": 467,
		"stimulus": "<span style=\"font-size: 6rem; font-weight: bold;\">1</span>",
		"response": " ",
		"task": "response",
		"correct_response": " ",
		"trial_type": "html-keyboard-response",
		"trial_index": 30,
		"time_elapsed": 73795,
		"internal_node_id": "0.0-4.0-0.26",
		"correct": true
	},
	{
		"rt": 422,
		"stimulus": "<span style=\"font-size: 6rem; font-weight: bold;\">9</span>",
		"response": " ",
		"task": "response",
		"correct_response": " ",
		"trial_type": "html-keyboard-response",
		"trial_index": 31,
		"time_elapsed": 75233,
		"internal_node_id": "0.0-4.0-0.27",
		"correct": true
	},
	{
		"rt": 494,
		"stimulus": "<span style=\"font-size: 6rem; font-weight: bold;\">2</span>",
		"response": " ",
		"task": "response",
		"correct_response": " ",
		"trial_type": "html-keyboard-response",
		"trial_index": 32,
		"time_elapsed": 76738,
		"internal_node_id": "0.0-4.0-0.28",
		"correct": true
	},
	{
		"rt": 489,
		"stimulus": "<span style=\"font-size: 6rem; font-weight: bold;\">7</span>",
		"response": " ",
		"task": "response",
		"correct_response": " ",
		"trial_type": "html-keyboard-response",
		"trial_index": 33,
		"time_elapsed": 78230,
		"internal_node_id": "0.0-4.0-0.29",
		"correct": true
	},
	{
		"rt": 2019,
		"stimulus": "<div class=\"text\"><p>これで実験を終了します。</p><p>ありがとうございました。</p></div>",
		"response": 0,
		"trial_type": "html-button-response",
		"trial_index": 34,
		"time_elapsed": 81265,
		"internal_node_id": "0.0-5.0"
	},
	{
		"success": true,
		"rt": null,
		"trial_type": "fullscreen",
		"trial_index": 35,
		"time_elapsed": 81268,
		"internal_node_id": "0.0-6.0"
	},
	{
		"rt": 35978,
		"stimulus": "<div class=\"text\"><p>あなたの正答率は 100% でした。</p>\n  <p>テストを終了します。ありがとうございました。</p></div>",
		"response": " ",
		"trial_type": "html-keyboard-response",
		"trial_index": 36,
		"time_elapsed": 117247,
		"internal_node_id": "0.0-7.0"
	}
]